# Output of JWST_backgrounds version 1.1.2
# background cache version 1.0

# for RA=261.6833333, DEC=-73.33222222 On calendar day 100
# Columns: 
# - Wavelength [micron] 
# - Total background (MJy/sr)
# - In-field zodiacal light (MJy/sr)
# - In-field galactic light (MJy/sr)
# - Stray light (MJy/sr)
# - Thermal self-emission (MJy/sr)
0.500000    0.1523    0.1244    0.0040    0.0239    0.0000
0.600000    0.2160    0.1645    0.0057    0.0459    0.0000
0.700000    0.2398    0.1846    0.0067    0.0485    0.0000
0.800000    0.2493    0.1906    0.0078    0.0508    0.0000
0.900000    0.2472    0.1872    0.0082    0.0519    0.0000
1.000000    0.2690    0.1783    0.0086    0.0821    0.0000
1.100000    0.2549    0.1666    0.0087    0.0796    0.0000
1.200000    0.2395    0.1536    0.0089    0.0771    0.0000
1.300000    0.2278    0.1437    0.0091    0.0750    0.0000
1.400000    0.2197    0.1369    0.0095    0.0733    0.0000
1.500000    0.2115    0.1300    0.0098    0.0717    0.0000
1.600000    0.2035    0.1233    0.0101    0.0701    0.0000
1.700000    0.1957    0.1168    0.0103    0.0685    0.0000
1.800000    0.1837    0.1107    0.0106    0.0624    0.0000
1.900000    0.1767    0.1050    0.0107    0.0609    0.0000
2.000000    0.1701    0.0996    0.0109    0.0596    0.0000
2.100000    0.1647    0.0946    0.0110    0.0591    0.0000
2.200000    0.1597    0.0899    0.0111    0.0587    0.0000
2.300000    0.1539    0.0843    0.0114    0.0583    0.0000
2.400000    0.1487    0.0791    0.0117    0.0579    0.0000
2.500000    0.1438    0.0744    0.0119    0.0575    0.0000
2.600000    0.1394    0.0700    0.0121    0.0572    0.0000
2.700000    0.1353    0.0659    0.0124    0.0570    0.0000
2.800000    0.1315    0.0622    0.0126    0.0567    0.0000
2.900000    0.1112    0.0587    0.0128    0.0396    0.0000
3.000000    0.1080    0.0555    0.0130    0.0394    0.0000
3.100000    0.1045    0.0525    0.0132    0.0387    0.0000
3.200000    0.1035    0.0498    0.0152    0.0385    0.0000
3.300000    0.1103    0.0472    0.0229    0.0401    0.0001
3.400000    0.0955    0.0448    0.0140    0.0366    0.0001
3.500000    0.1090    0.0573    0.0139    0.0376    0.0002
3.700000    0.1189    0.0663    0.0144    0.0378    0.0003
4.000000    0.1509    0.0951    0.0152    0.0397    0.0009
4.250000    0.1886    0.1373    0.0157    0.0337    0.0019
4.500000    0.2589    0.1998    0.0164    0.0392    0.0035
4.750000    0.3546    0.2847    0.0171    0.0467    0.0061
5.000000    0.4765    0.3925    0.0181    0.0560    0.0099
5.100000    0.5444    0.4518    0.0187    0.0621    0.0118
5.200000    0.6193    0.5176    0.0189    0.0687    0.0140
5.300000    0.7114    0.5900    0.0271    0.0777    0.0165
5.400000    0.7943    0.6692    0.0213    0.0844    0.0194
5.500000    0.8965    0.7555    0.0247    0.0938    0.0225
5.700000    1.1446    0.9494    0.0471    0.1182    0.0299
5.900000    1.3987    1.1725    0.0467    0.1406    0.0388
6.100000    1.7536    1.4248    0.1062    0.1731    0.0495
6.300000    2.2331    1.7059    0.2341    0.2309    0.0621
6.500000    2.4403    2.0150    0.1133    0.2350    0.0769
6.700000    2.8124    2.3507    0.1010    0.2667    0.0940
6.900000    3.2497    2.7114    0.1171    0.3077    0.1136
7.100000    3.7112    3.0951    0.1296    0.3505    0.1360
7.300000    4.2492    3.4997    0.1824    0.4054    0.1617
7.500000    4.8925    3.9227    0.3004    0.4786    0.1909
7.700000    5.5042    4.3617    0.3746    0.5436    0.2243
7.900000    5.9597    4.8142    0.3074    0.5757    0.2623
8.100000    6.4042    5.2776    0.2174    0.6034    0.3057
8.300000    6.9498    5.7494    0.1959    0.6491    0.3553
8.500000    7.5627    6.2272    0.2168    0.7066    0.4121
8.700000    8.1448    6.7085    0.2028    0.7560    0.4774
8.900000    8.6615    7.1911    0.1279    0.7902    0.5523
9.100000    9.2580    7.6728    0.1079    0.8387    0.6386
9.300000    9.8788    8.1517    0.0990    0.8902    0.7379
9.500000    10.5176    8.6259    0.0962    0.9433    0.8522
9.700000    11.1750    9.0937    0.1045    0.9931    0.9837
9.900000    11.8457    9.5535    0.1096    1.0477    1.1350
10.100000    12.5132    10.0040    0.1049    1.0964    1.3080
10.300000    13.1936    10.4439    0.1010    1.1417    1.5070
10.500000    13.9123    10.8721    0.1155    1.1908    1.7340
10.700000    14.6450    11.2877    0.1267    1.2376    1.9930
10.900000    15.4112    11.6898    0.1485    1.2860    2.2870
11.100000    16.2868    12.0778    0.2370    1.3510    2.6210
11.300000    17.2417    12.4510    0.3669    1.4258    2.9980
11.500000    17.9939    12.8091    0.3137    1.4491    3.4220
11.700000    18.7071    13.1517    0.2017    1.4547    3.8990
11.900000    19.5883    13.4785    0.1907    1.4861    4.4330
12.100000    20.5902    13.8398    0.1994    1.5230    5.0280
12.300000    21.7110    14.2396    0.2117    1.5687    5.6910
12.500000    22.8880    14.6285    0.2211    1.6124    6.4260
12.700000    24.1270    15.0063    0.2284    1.6544    7.2380
12.900000    25.4025    15.3728    0.2081    1.6877    8.1340
13.100000    26.7325    15.7278    0.1714    1.7153    9.1180
13.300000    28.1722    16.0713    0.1539    1.7469    10.2000
13.500000    29.7199    16.4033    0.1543    1.7823    11.3800
13.700000    31.3553    16.7237    0.1472    1.8144    12.6700
13.900000    33.0803    17.0326    0.1341    1.8436    14.0700
14.100000    34.9414    17.3300    0.1358    1.8757    15.6000
14.300000    36.9016    17.6160    0.1308    1.9048    17.2500
14.500000    38.9878    17.8908    0.1247    1.9323    19.0400
14.700000    41.1982    18.1544    0.1158    1.9580    20.9700
14.900000    43.5539    18.4071    0.1128    1.9841    23.0500
15.100000    46.0596    18.6489    0.1113    2.0095    25.2900
15.300000    48.7195    18.8801    0.1065    2.0329    27.7000
15.500000    51.5721    19.1008    0.1208    2.0604    30.2900
16.500000    68.6072    20.0555    0.1272    2.1645    46.2600
17.500000    91.5609    20.7827    0.1335    2.2447    68.4000
18.500000    122.4354    21.3118    0.1396    2.3040    98.6800
19.500000    163.8623    21.6713    0.1457    2.3454    139.7000
20.500000    219.3110    21.8875    0.1520    2.3716    194.9000
21.500000    293.1271    21.9840    0.1582    2.3850    268.6000
22.500000    390.5337    21.9814    0.1644    2.3878    366.0000
23.500000    517.6502    21.8977    0.1706    2.3820    493.2000
24.500000    681.4938    21.7479    0.1768    2.3690    657.2000
25.500000    889.5713    21.3558    0.1849    2.3305    865.7000
26.500000    1150.2073    20.7435    0.1949    2.2689    1127.0000
27.500000    1472.5247    20.1143    0.2051    2.2053    1450.0000
28.500000    1864.8330    19.4766    0.2156    2.1408    1843.0000
29.500000    2336.1393    18.8371    0.2263    2.0760    2315.0000
30.500000    2894.4496    18.2010    0.2371    2.0114    2874.0000
31.000000    3145.1077    17.8856    0.2426    1.9794    3125.0000
